File: tga.csv
1, 48.0
2, 48.0
3, 48.0
4, 48.0
5, 40.0
6, 48.0
7, 48.0
8, 40.0
9, 40.0
10, 40.0
11, 40.0
12, 48.0
13, 48.0
14, 48.0
15, 40.0
16, 48.0
17, 56.0
18, 48.0
19, 40.0
20, 48.0
21, 40.0
22, 48.0
23, 40.0
24, 40.0
25, 40.0
26, 40.0
27, 48.0
28, 40.0
29, 40.0
30, 40.0
31, 48.0
32, 48.0
33, 48.0
34, 40.0
35, 40.0
36, 40.0
37, 48.0
38, 56.0
39, 56.0
40, 40.0
41, 32.0
42, 40.0
43, 48.0
44, 48.0
45, 40.0
46, 40.0
47, 40.0
48, 48.0
49, 40.0
50, 48.0
51, 48.0
52, 48.0
53, 48.0
54, 48.0
55, 48.0
56, 40.0
57, 48.0
58, 40.0
59, 48.0
60, 40.0
61, 40.0
62, 48.0
63, 48.0
64, 40.0
65, 48.0
66, 56.0
67, 40.0
68, 40.0
69, 40.0
70, 56.0
71, 40.0
72, 48.0
73, 56.0
74, 40.0
75, 40.0
76, 48.0
77, 40.0
78, 40.0
79, 40.0
80, 56.0
81, 56.0
82, 40.0
83, 48.0
84, 40.0
85, 40.0
86, 56.0
87, 48.0
88, 40.0
89, 40.0
90, 48.0
91, 40.0
92, 40.0
93, 48.0
94, 40.0
95, 40.0
96, 40.0
97, 48.0
98, 48.0
99, 48.0
100, 32.0
101, 40.0
102, 40.0
103, 48.0
104, 48.0
105, 40.0
106, 40.0
107, 48.0
108, 40.0
109, 40.0
110, 48.0
111, 48.0
112, 56.0
113, 40.0
114, 48.0
115, 56.0
116, 48.0
117, 48.0
118, 32.0
119, 48.0
120, 48.0
121, 48.0
122, 48.0
123, 48.0
124, 40.0
125, 48.0
126, 40.0
127, 48.0
128, 48.0
129, 32.0
130, 40.0
131, 40.0
132, 40.0
133, 40.0
134, 40.0
135, 48.0
136, 40.0
137, 40.0
138, 40.0
139, 40.0
140, 48.0
141, 48.0
142, 40.0
143, 56.0
144, 48.0
145, 48.0
146, 48.0
147, 48.0
148, 48.0
149, 48.0
150, 40.0
151, 48.0
152, 48.0
153, 40.0
154, 48.0
155, 48.0
156, 40.0
157, 48.0
158, 48.0
159, 48.0
160, 56.0
161, 40.0
162, 40.0
163, 48.0
164, 48.0
165, 40.0
166, 40.0
167, 48.0
168, 32.0
169, 40.0
170, 56.0
171, 48.0
172, 48.0
173, 40.0
174, 40.0
175, 40.0
176, 48.0
177, 40.0
178, 40.0
179, 48.0
180, 40.0
181, 48.0
182, 56.0
183, 48.0
184, 40.0
185, 48.0
186, 40.0
187, 48.0
188, 40.0
189, 48.0
190, 40.0
191, 48.0
192, 40.0
193, 48.0
194, 56.0
195, 40.0
196, 48.0
197, 40.0
198, 40.0
199, 40.0
200, 48.0
201, 48.0
202, 48.0
203, 40.0
204, 48.0
205, 40.0
206, 40.0
207, 48.0
208, 40.0
209, 48.0
210, 48.0
211, 48.0
212, 40.0
213, 40.0
214, 40.0
215, 56.0
216, 40.0
217, 40.0
218, 40.0
219, 48.0
220, 40.0
221, 48.0
222, 48.0
223, 48.0
224, 48.0
225, 40.0
226, 40.0
227, 48.0
228, 48.0
229, 40.0
230, 48.0
231, 40.0
232, 40.0
233, 40.0
234, 48.0
235, 40.0
236, 40.0
237, 40.0
238, 48.0
239, 48.0
240, 40.0
241, 48.0
242, 40.0
243, 48.0
244, 48.0
245, 40.0
246, 40.0
247, 48.0
248, 40.0
249, 48.0
250, 56.0
251, 48.0
252, 48.0
253, 48.0
254, 40.0
255, 48.0
256, 56.0
257, 56.0
258, 40.0
259, 40.0
260, 56.0
261, 48.0
262, 40.0
263, 40.0
264, 48.0
265, 40.0
266, 40.0
267, 40.0
268, 40.0
269, 48.0
270, 40.0
271, 56.0
272, 40.0
273, 40.0
274, 48.0
275, 40.0
276, 40.0
277, 40.0
278, 48.0
279, 40.0
280, 48.0
281, 40.0
282, 48.0
283, 48.0
284, 40.0
285, 40.0
286, 56.0
287, 40.0
288, 40.0
289, 48.0
290, 32.0
291, 48.0
292, 48.0
293, 40.0
294, 48.0
295, 48.0
296, 40.0
297, 48.0
298, 40.0
299, 40.0
300, 40.0
301, 48.0
302, 48.0
303, 40.0
304, 40.0
305, 48.0
306, 40.0
307, 56.0
308, 40.0
309, 40.0
310, 48.0
311, 48.0
312, 40.0
313, 48.0
314, 40.0
315, 40.0
316, 56.0
317, 40.0
318, 40.0
319, 48.0
320, 40.0
321, 56.0
322, 40.0
323, 40.0
324, 40.0
325, 40.0
326, 48.0
327, 40.0
328, 56.0
329, 48.0
330, 48.0
331, 48.0
332, 48.0
333, 48.0
334, 40.0
335, 40.0
336, 48.0
337, 40.0
338, 40.0
339, 48.0
340, 48.0
341, 48.0
342, 40.0
343, 48.0
344, 48.0
345, 40.0
346, 56.0
347, 48.0
348, 40.0
349, 40.0
350, 40.0
351, 40.0
352, 48.0
353, 48.0
354, 40.0
355, 48.0
356, 40.0
357, 40.0
358, 40.0
359, 40.0
360, 40.0
361, 40.0
362, 40.0
363, 48.0
364, 40.0
365, 48.0
366, 48.0
367, 48.0
368, 40.0
369, 32.0
370, 40.0
371, 40.0
372, 40.0
373, 40.0
374, 48.0
375, 40.0
376, 40.0
377, 40.0
378, 48.0
379, 48.0
380, 48.0
381, 48.0
382, 48.0
383, 48.0
384, 32.0
385, 40.0
386, 40.0
387, 40.0
388, 40.0
389, 40.0
390, 48.0
391, 48.0
392, 32.0
393, 40.0
394, 48.0
395, 40.0
396, 40.0
397, 48.0
398, 40.0
399, 40.0
400, 40.0
401, 48.0
402, 40.0
403, 40.0
404, 40.0
405, 40.0
406, 40.0
407, 48.0
408, 48.0
409, 40.0
410, 48.0
411, 48.0
412, 48.0
413, 56.0
414, 48.0
415, 48.0
416, 40.0
417, 48.0
418, 48.0
419, 48.0
420, 48.0
421, 40.0
422, 48.0
423, 40.0
424, 40.0
425, 40.0
426, 48.0
427, 48.0
428, 40.0
429, 40.0
430, 48.0
431, 48.0
432, 48.0
433, 48.0
434, 48.0
435, 48.0
436, 40.0
437, 48.0
438, 48.0
439, 56.0
440, 40.0
441, 48.0
442, 56.0
443, 40.0
444, 40.0
445, 40.0
446, 48.0
447, 40.0
448, 40.0
449, 40.0
450, 40.0
451, 40.0
452, 40.0
453, 48.0
454, 56.0
455, 40.0
456, 48.0
457, 48.0
458, 48.0
459, 40.0
460, 40.0
461, 40.0
462, 48.0
463, 48.0
464, 40.0
465, 32.0
466, 56.0
467, 48.0
468, 48.0
469, 40.0
470, 40.0
471, 48.0
472, 56.0
473, 40.0
474, 40.0
475, 40.0
476, 48.0
477, 48.0
478, 48.0
479, 56.0
480, 40.0
481, 48.0
482, 40.0
483, 56.0
484, 48.0
485, 56.0
486, 40.0
487, 48.0
488, 48.0
489, 48.0
490, 48.0
491, 40.0
492, 48.0
493, 48.0
494, 40.0
495, 40.0
496, 40.0
497, 48.0
498, 48.0
499, 48.0
500, 48.0
501, 40.0
502, 48.0
503, 48.0
504, 48.0
505, 48.0
506, 40.0
507, 48.0
508, 40.0
509, 48.0
510, 48.0
511, 48.0
512, 40.0
513, 40.0
514, 40.0
515, 40.0
516, 48.0
517, 40.0
518, 40.0
519, 40.0
520, 48.0
521, 40.0
522, 40.0
523, 40.0
524, 40.0
525, 48.0
526, 48.0
527, 40.0
528, 48.0
529, 40.0
530, 48.0
531, 40.0
532, 56.0
533, 40.0
534, 56.0
535, 48.0
536, 40.0
537, 48.0
538, 40.0
539, 48.0
540, 48.0
541, 40.0
542, 40.0
543, 40.0
544, 40.0
545, 48.0
546, 48.0
547, 48.0
548, 40.0
549, 40.0
550, 32.0
551, 40.0
552, 40.0
553, 48.0
554, 48.0
555, 40.0
556, 40.0
557, 48.0
558, 40.0
559, 40.0
560, 40.0
561, 40.0
562, 40.0
563, 48.0
564, 40.0
565, 48.0
566, 48.0
567, 48.0
568, 40.0
569, 40.0
570, 40.0
571, 48.0
572, 56.0
573, 48.0
574, 48.0
575, 40.0
576, 48.0
577, 48.0
578, 48.0
579, 48.0
580, 48.0
581, 40.0
582, 48.0
583, 48.0
584, 40.0
585, 48.0
586, 40.0
587, 40.0
588, 48.0
589, 40.0
590, 40.0
591, 40.0
592, 48.0
593, 40.0
594, 40.0
595, 40.0
596, 40.0
597, 56.0
598, 40.0
599, 40.0
600, 40.0
601, 40.0
602, 40.0
603, 48.0
604, 40.0
605, 48.0
606, 56.0
607, 48.0
608, 48.0
609, 40.0
610, 40.0
611, 48.0
612, 40.0
613, 40.0
614, 48.0
615, 40.0
616, 40.0
617, 40.0
618, 40.0
619, 48.0
620, 48.0
621, 48.0
622, 48.0
623, 56.0
624, 48.0
625, 40.0
626, 40.0
627, 40.0
628, 48.0
629, 40.0
630, 40.0
631, 40.0
632, 40.0
633, 40.0
634, 40.0
635, 40.0
636, 40.0
637, 40.0
638, 48.0
639, 48.0
640, 48.0
641, 48.0
642, 56.0
643, 48.0
644, 48.0
645, 40.0
646, 40.0
647, 40.0
648, 40.0
649, 40.0
650, 56.0
651, 40.0
652, 48.0
653, 40.0
654, 40.0
655, 48.0
656, 40.0
657, 48.0
658, 48.0
659, 48.0
660, 48.0
661, 48.0
662, 48.0
663, 40.0
664, 40.0
665, 48.0
666, 40.0
667, 40.0
668, 48.0
669, 40.0
670, 48.0
671, 40.0
672, 40.0
673, 40.0
674, 40.0
675, 40.0
676, 48.0
677, 48.0
678, 40.0
679, 48.0
680, 48.0
681, 56.0
682, 40.0
683, 48.0
684, 40.0
685, 48.0
686, 40.0
687, 48.0
688, 40.0
689, 40.0
690, 48.0
691, 40.0
692, 48.0
693, 48.0
694, 40.0
695, 48.0
696, 40.0
697, 48.0
698, 40.0
699, 40.0
700, 48.0
701, 40.0
702, 40.0
703, 48.0
704, 40.0
705, 40.0
706, 40.0
707, 40.0
708, 48.0
709, 32.0
710, 40.0
711, 48.0
712, 40.0
713, 48.0
714, 40.0
715, 40.0
716, 40.0
717, 40.0
718, 48.0
719, 48.0
720, 48.0
721, 40.0
722, 48.0
723, 40.0
724, 40.0
725, 40.0
726, 40.0
727, 48.0
728, 40.0
729, 40.0
730, 48.0
731, 48.0
732, 40.0
733, 40.0
734, 56.0
735, 48.0
736, 48.0
737, 40.0
738, 48.0
739, 40.0
740, 48.0
741, 40.0
742, 40.0
743, 48.0
744, 40.0
745, 48.0
746, 40.0
747, 48.0
748, 40.0
749, 48.0
750, 40.0
751, 40.0
752, 40.0
753, 48.0
754, 56.0
755, 48.0
756, 56.0
757, 48.0
758, 40.0
759, 40.0
760, 48.0
761, 40.0
762, 40.0
763, 48.0
764, 48.0
765, 48.0
766, 40.0
767, 40.0
768, 40.0
769, 40.0
770, 48.0
771, 48.0
772, 40.0
773, 40.0
774, 48.0
775, 40.0
776, 48.0
777, 40.0
778, 48.0
779, 48.0
780, 48.0
781, 40.0
782, 48.0
783, 40.0
784, 48.0
785, 48.0
786, 48.0
787, 56.0
788, 40.0
789, 48.0
790, 48.0
791, 40.0
792, 40.0
793, 48.0
794, 40.0
795, 48.0
796, 40.0
797, 40.0
798, 40.0
799, 40.0
800, 40.0
801, 40.0
802, 48.0
803, 40.0
804, 56.0
805, 48.0
806, 48.0
807, 40.0
808, 48.0
809, 40.0
810, 40.0
811, 48.0
812, 40.0
813, 40.0
814, 48.0
815, 40.0
816, 40.0
817, 48.0
818, 48.0
819, 48.0
820, 48.0
821, 48.0
822, 40.0
823, 40.0
824, 48.0
825, 40.0
826, 40.0
827, 40.0
828, 48.0
829, 40.0
830, 40.0
831, 40.0
832, 48.0
833, 40.0
834, 48.0
835, 48.0
836, 48.0
837, 40.0
838, 48.0
839, 48.0
840, 40.0
841, 56.0
842, 48.0
843, 48.0
844, 48.0
845, 40.0
846, 40.0
847, 40.0
848, 48.0
849, 40.0
850, 40.0
851, 40.0
852, 48.0
853, 40.0
854, 40.0
855, 40.0
856, 40.0
857, 48.0
858, 40.0
859, 40.0
860, 32.0
861, 48.0
862, 56.0
863, 64.0
864, 48.0
865, 48.0
866, 40.0
867, 40.0
868, 40.0
869, 48.0
870, 48.0
871, 40.0
872, 48.0
873, 40.0
874, 40.0
875, 40.0
876, 40.0
877, 40.0
878, 48.0
879, 40.0
880, 40.0
881, 40.0
882, 56.0
883, 48.0
884, 40.0
885, 48.0
886, 40.0
887, 48.0
888, 40.0
889, 40.0
890, 48.0
891, 48.0
892, 48.0
893, 40.0
894, 40.0
895, 48.0
896, 40.0
897, 48.0
898, 40.0
899, 48.0
900, 40.0
901, 40.0
902, 40.0
903, 48.0
904, 40.0
905, 48.0
906, 40.0
907, 48.0
908, 56.0
909, 48.0
910, 40.0
911, 48.0
912, 40.0
913, 48.0
914, 48.0
915, 40.0
916, 48.0
917, 40.0
918, 40.0
919, 40.0
920, 56.0
921, 48.0
922, 48.0
923, 48.0
924, 48.0
925, 40.0
926, 48.0
927, 48.0
928, 40.0
929, 48.0
930, 40.0
931, 40.0
932, 48.0
933, 48.0
934, 48.0
935, 40.0
936, 40.0
937, 40.0
938, 40.0
939, 40.0
940, 40.0
941, 40.0
942, 40.0
943, 56.0
944, 48.0
945, 40.0
946, 48.0
947, 40.0
948, 40.0
949, 40.0
950, 48.0
951, 48.0
952, 48.0
953, 48.0
954, 40.0
955, 40.0
956, 48.0
957, 40.0
958, 48.0
959, 40.0
960, 56.0
961, 48.0
962, 48.0
963, 40.0
964, 48.0
965, 40.0
966, 40.0
967, 48.0
968, 40.0
969, 48.0
970, 48.0
971, 40.0
972, 40.0
973, 40.0
974, 40.0
975, 40.0
976, 40.0
977, 48.0
978, 56.0
979, 48.0
980, 48.0
981, 40.0
982, 48.0
983, 48.0
984, 48.0
985, 40.0
986, 40.0
987, 48.0
988, 56.0
989, 40.0
990, 48.0
991, 40.0
992, 48.0
993, 40.0
994, 48.0
995, 48.0
996, 48.0
997, 48.0
998, 40.0
999, 40.0
1000, 48.0